time (s)	strain (mm/mm)	stress (kPa)
-13.500	-0.18427	0.90327
-13.460	-0.18427	-0.065522
-13.420	-0.18482	-1.0343
-13.380	-0.18375	1.5351
-13.340	-0.18482	-0.69734
-13.300	-0.18375	-1.0343
-13.260	-0.18482	-0.40249
-13.220	-0.18375	0.90327
-13.180	-0.18375	-0.69734
-13.140	-0.18482	-2.0031
-13.100	-0.18534	0.27145
-13.060	-0.18534	-0.065522
-13.020	-0.18482	-1.3292
-12.980	-0.18534	-1.0343
-12.940	-0.18534	1.8721
-12.900	-0.18534	0.56630
-12.860	-0.18482	-1.0343
-12.820	-0.18427	0.90327
-12.780	-0.18640	-0.69734
-12.740	-0.18747	-1.0343
-12.700	-0.18588	0.56630
-12.660	-0.18640	-1.6661
-12.620	-0.18588	1.8721
-12.580	-0.18588	-2.2979
-12.540	-0.18747	-0.40249
-12.500	-0.18640	-0.065522
-12.460	-0.18799	0.27145
-12.420	-0.18588	-0.40249
-12.380	-0.18588	-0.40249
-12.340	-0.18799	-1.3292
-12.300	-0.18799	1.2402
-12.260	-0.18640	-0.065522
-12.220	-0.18747	-1.0343
-12.180	-0.18692	0.56630
-12.140	-0.18799	-0.40249
-12.100	-0.18747	-0.065522
-12.060	-0.18799	0.90327
-12.020	-0.18799	-0.69734
-11.980	-0.18692	0.90327
-11.940	-0.18747	0.90327
-11.900	-0.18799	1.5351
-11.860	-0.18482	-0.065522
-11.820	-0.18799	1.8721
-11.780	-0.18799	2.5039
-11.740	-0.18853	-0.065522
-11.700	-0.18482	0.56630
-11.660	-0.18747	1.8721
-11.620	-0.18905	0.56630
-11.580	-0.18747	-0.065522
-11.540	-0.18747	2.2090
-11.500	-0.18747	-0.69734
-11.460	-0.18799	2.8408
-11.420	-0.18692	-0.40249
-11.380	-0.18588	1.2402
-11.340	-0.18799	1.5351
-11.300	-0.18747	1.2402
-11.260	-0.18482	0.90327
-11.220	-0.18640	0.90327
-11.180	-0.18640	0.56630
-11.140	-0.18692	0.90327
-11.100	-0.18640	1.2402
-11.060	-0.18640	0.56630
-11.020	-0.18640	1.2402
-10.980	-0.18534	0.27145
-10.940	-0.18534	0.90327
-10.900	-0.18427	-0.065522
-10.860	-0.18588	-0.065522
-10.820	-0.18482	0.90327
-10.780	-0.18588	-1.0343
-10.740	-0.18534	-0.69734
-10.700	-0.18588	2.8408
-10.660	-0.18799	3.8096
-10.620	-0.18482	1.2402
-10.580	-0.18427	-1.6661
-10.540	-0.18375	1.2402
-10.500	-0.18534	3.1357
-10.460	-0.18482	-0.065522
-10.420	-0.18427	1.5351
-10.380	-0.18482	-1.0343
-10.340	-0.18534	-0.69734
-10.300	-0.18534	-2.0031
-10.260	-0.18534	1.8721
-10.220	-0.18534	-1.0343
-10.180	-0.18640	0.90327
-10.140	-0.18588	0.27145
-10.100	-0.18588	-0.065522
-10.050	-0.18588	-1.3292
-10.020	-0.18534	0.27145
-9.9800	-0.18534	-1.6661
-9.9400	-0.18588	0.27145
-9.9000	-0.18692	1.8721
-9.8600	-0.18692	-0.69734
-9.8200	-0.18534	3.1357
-9.7800	-0.18534	-1.0343
-9.7400	-0.18640	-0.065522
-9.7000	-0.18692	-1.0343
-9.6600	-0.18692	-0.69734
-9.6200	-0.18853	-1.6661
-9.5800	-0.18692	1.5351
-9.5400	-0.18747	1.5351
-9.5000	-0.18747	1.2402
-9.4500	-0.18640	-2.6349
-9.4200	-0.18747	-0.69734
-9.3800	-0.18799	-0.065522
-9.3400	-0.18640	-1.6661
-9.3000	-0.18853	0.56630
-9.2600	-0.18747	0.90327
-9.2200	-0.18799	0.90327
-9.1800	-0.18692	0.27145
-9.1400	-0.18853	0.56630
-9.1000	-0.18747	0.56630
-9.0600	-0.18799	-0.065522
-9.0200	-0.18692	-0.69734
-8.9800	-0.18747	-0.69734
-8.9400	-0.18747	-0.40249
-8.9000	-0.18799	-0.40249
-8.8600	-0.18853	-1.0343
-8.8200	-0.18905	1.5351
-8.7800	-0.18799	2.2090
-8.7400	-0.18747	0.90327
-8.7000	-0.18692	-0.69734
-8.6600	-0.18692	-0.065522
-8.6200	-0.18747	-0.40249
-8.5800	-0.18747	-0.69734
-8.5400	-0.18905	1.5351
-8.5000	-0.18799	1.5351
-8.4600	-0.18692	-0.065522
-8.4200	-0.18692	1.2402
-8.3800	-0.18588	-2.0031
-8.3400	-0.18534	0.27145
-8.3000	-0.18588	-0.065522
-8.2600	-0.18588	0.27145
-8.2200	-0.18692	-0.69734
-8.1800	-0.18692	2.5039
-8.1400	-0.18692	1.2402
-8.1000	-0.18482	-1.0343
-8.0600	-0.18534	-0.065522
-8.0200	-0.18482	-0.69734
-7.9800	-0.18588	-1.0343
-7.9400	-0.18534	0.27145
-7.9000	-0.18534	-0.69734
-7.8600	-0.18588	1.2402
-7.8200	-0.18534	0.90327
-7.7800	-0.18375	-0.065522
-7.7400	-0.18482	4.1045
-7.7000	-0.18482	0.56630
-7.6600	-0.18427	3.1357
-7.6200	-0.18323	-2.9719
-7.5800	-0.18269	0.56630
-7.5400	-0.18323	-1.0343
-7.5000	-0.18165	1.2402
-7.4600	-0.18165	1.2402
-7.4200	-0.18058	-0.065522
-7.3800	-0.17952	2.8408
-7.3400	-0.17952	-1.0343
-7.3000	-0.17845	-2.2979
-7.2600	-0.17742	0.90327
-7.2200	-0.17845	0.27145
-7.1800	-0.17793	2.5039
-7.1400	-0.17845	-1.6661
-7.1000	-0.17742	-0.69734
-7.0600	-0.17687	3.4727
-7.0200	-0.17635	-1.6661
-6.9800	-0.17477	-0.69734
-6.9400	-0.17580	-0.40249
-6.9000	-0.17370	0.27145
-6.8600	-0.17422	3.1357
-6.8200	-0.17477	1.2402
-6.7800	-0.17422	2.2090
-6.7400	-0.17212	-0.065522
-6.7000	-0.17212	0.90327
-6.6600	-0.17212	0.27145
-6.6200	-0.17053	-0.40249
-6.5800	-0.17157	1.2402
-6.5400	-0.17053	0.56630
-6.5000	-0.17053	-1.0343
-6.4600	-0.16999	1.8721
-6.4200	-0.16947	-2.2979
-6.3800	-0.16895	-0.40249
-6.3400	-0.16840	-1.6661
-6.3000	-0.16788	-0.065522
-6.2600	-0.16630	0.27145
-6.2200	-0.16734	-0.69734
-6.1800	-0.16682	-0.40249
-6.1400	-0.16630	-1.0343
-6.1000	-0.16469	-0.40249
-6.0600	-0.16523	0.90327
-6.0200	-0.16365	-1.0343
-5.9800	-0.16365	-0.69734
-5.9400	-0.16310	2.8408
-5.9000	-0.16206	-1.3292
-5.8600	-0.16152	1.2402
-5.8200	-0.16100	-1.0343
-5.7800	-0.16045	-0.40249
-5.7400	-0.16045	0.90327
-5.7000	-0.15835	-0.065522
-5.6600	-0.15783	0.56630
-5.6200	-0.15783	-0.40249
-5.5800	-0.15676	-0.40249
-5.5400	-0.15622	1.2402
-5.5000	-0.15676	-2.2979
-5.4600	-0.15412	1.5351
-5.4200	-0.15463	-0.69734
-5.3800	-0.15518	-0.065522
-5.3400	-0.15360	0.90327
-5.3000	-0.15305	-1.6661
-5.2600	-0.15095	0.56630
-5.2200	-0.15147	0.90327
-5.1800	-0.15095	-1.0343
-5.1400	-0.14988	-1.3292
-5.1000	-0.14933	1.2402
-5.0600	-0.14882	0.56630
-5.0200	-0.14830	1.5351
-4.9800	-0.14830	-0.69734
-4.9400	-0.14671	1.5351
-4.9000	-0.14671	-0.40249
-4.8600	-0.14458	0.27145
-4.8200	-0.14565	-1.0343
-4.7800	-0.14406	1.5351
-4.7400	-0.14300	1.5351
-4.7000	-0.14248	-0.40249
-4.6600	-0.14300	1.5351
-4.6200	-0.14141	1.8721
-4.5800	-0.14141	0.27145
-4.5400	-0.14141	-1.6661
-4.5000	-0.14035	-1.0343
-4.4600	-0.13928	2.8408
-4.4200	-0.13983	0.90327
-4.3800	-0.13928	-0.065522
-4.3400	-0.13876	2.8408
-4.3000	-0.13770	1.5351
-4.2600	-0.13824	2.8408
-4.2200	-0.13928	-1.0343
-4.1800	-0.13663	-1.3292
-4.1400	-0.13663	2.5039
-4.1000	-0.13560	0.90327
-4.0600	-0.13663	-1.0343
-4.0200	-0.13505	2.5039
-3.9800	-0.13453	-0.065522
-3.9400	-0.13401	0.27145
-3.9000	-0.13453	-2.6349
-3.8600	-0.13401	-1.0343
-3.8200	-0.13295	1.5351
-3.7800	-0.13295	0.27145
-3.7400	-0.13240	1.2402
-3.7000	-0.13188	2.2090
-3.6600	-0.13188	2.5039
-3.6200	-0.13136	-2.0031
-3.5800	-0.13030	-0.40249
-3.5400	-0.13030	-0.40249
-3.5000	-0.13030	2.2090
-3.4600	-0.12923	-1.3292
-3.4200	-0.12923	2.2090
-3.3800	-0.12871	-2.0031
-3.3400	-0.12713	2.5039
-3.3000	-0.12606	0.90327
-3.2600	-0.12658	2.2090
-3.2200	-0.12606	2.8408
-3.1800	-0.12658	-2.6349
-3.1400	-0.12552	0.56630
-3.1000	-0.12606	-2.0031
-3.0600	-0.12393	-0.065522
-3.0200	-0.12606	3.1357
-2.9800	-0.12552	0.90327
-2.9400	-0.12606	2.5039
-2.9000	-0.12552	-0.065522
-2.8600	-0.12606	-0.69734
-2.8200	-0.12606	-0.40249
-2.7800	-0.12500	0.56630
-2.7400	-0.12448	0.90327
-2.7000	-0.12448	1.5351
-2.6600	-0.12393	1.2402
-2.6200	-0.12448	0.27145
-2.5800	-0.12448	1.8721
-2.5400	-0.12552	-1.3292
-2.5000	-0.12341	0.27145
-2.4600	-0.12393	1.5351
-2.4200	-0.12235	2.2090
-2.3800	-0.12341	1.8721
-2.3400	-0.12393	0.90327
-2.3000	-0.12341	1.5351
-2.2600	-0.12341	2.2090
-2.2200	-0.12289	-0.065522
-2.1800	-0.12289	1.5351
-2.1400	-0.12289	2.2090
-2.1000	-0.12289	0.56630
-2.0600	-0.12289	0.27145
-2.0200	-0.12289	0.27145
-1.9800	-0.12448	0.90327
-1.9400	-0.12341	2.2090
-1.9000	-0.12289	0.27145
-1.8600	-0.12235	0.27145
-1.8200	-0.12289	-1.0343
-1.7800	-0.12341	-2.0031
-1.7400	-0.13453	-0.69734
-1.7000	-0.14406	0.56630
-1.6600	-0.15360	1.5351
-1.6200	-0.16682	1.2402
-1.5800	-0.17742	0.27145
-1.5400	-0.18482	-0.065522
-1.5000	-0.18640	-1.0343
-1.4600	-0.18588	-1.0343
-1.4200	-0.18588	-1.0343
-1.3800	-0.18482	-1.0343
-1.3400	-0.18534	0.90327
-1.3000	-0.18482	1.2402
-1.2600	-0.18482	-1.0343
-1.2200	-0.18640	0.56630
-1.1800	-0.18588	-1.0343
-1.1400	-0.18640	-0.40249
-1.1000	-0.18640	-1.6661
-1.0600	-0.18640	-1.3292
-1.0200	-0.18692	-1.0343
-0.98000	-0.18853	-0.69734
-0.94000	-0.18640	1.2402
-0.90000	-0.18799	-1.6661
-0.86000	-0.18692	0.56630
-0.82000	-0.18853	-1.0343
-0.78000	-0.18853	1.5351
-0.74000	-0.18747	-0.065522
-0.70000	-0.18747	-0.69734
-0.66000	-0.18799	0.27145
-0.62000	-0.18799	2.2090
-0.58000	-0.18747	0.56630
-0.54000	-0.18853	0.56630
-0.50000	-0.18747	1.5351
-0.46000	-0.18747	-0.69734
-0.42000	-0.18853	3.1357
-0.38000	-0.18905	0.90327
-0.34000	-0.18799	3.1357
-0.30000	-0.18747	0.90327
-0.26000	-0.18905	1.2402
-0.22000	-0.18747	0.27145
-0.18000	-0.18799	0.56630
-0.14000	-0.18799	2.8408
-0.10000	-0.18799	1.5351
-0.060000	-0.18692	0.90327
-0.020000	-0.18747	1.5351
0.020000	-0.18799	0.27145
0.060000	-0.18692	1.5351
0.10000	-0.18588	1.2402
0.14000	-0.18747	0.90327
0.18000	-0.18588	-1.0343
0.22000	-0.18747	0.27145
0.26000	-0.18640	2.2090
0.30000	-0.18692	-0.69734
0.34000	-0.18588	1.5351
0.38000	-0.18640	-0.065522
0.42000	-0.18534	1.2402
0.46000	-0.18747	-0.40249
0.50000	-0.18534	0.90327
0.54000	-0.18588	0.27145
0.58000	-0.18640	-0.40249
0.62000	-0.18640	1.2402
0.66000	-0.18588	-0.69734
0.70000	-0.18534	0.90327
0.74000	-0.18588	-0.69734
0.78000	-0.18747	-0.065522
0.82000	-0.18534	-0.065522
0.86000	-0.18375	0.27145
0.90000	-0.18427	-0.40249
0.94000	-0.18482	-1.3292
0.98000	-0.18482	0.90327
1.0200	-0.18588	-2.6349
1.0600	-0.18482	-0.065522
1.1000	-0.18375	-2.0031
1.1400	-0.18375	-2.9719
1.1800	-0.18217	-2.0031
1.2200	-0.18110	0.56630
1.2600	-0.18165	-0.69734
1.3000	-0.18165	-1.6661
1.3400	-0.18110	0.27145
1.3800	-0.18217	0.90327
1.4200	-0.18058	-0.065522
1.4600	-0.17845	-0.065522
1.5000	-0.17952	1.5351
1.5400	-0.17845	-0.69734
1.5800	-0.17742	-1.6661
1.6200	-0.17793	-1.6661
1.6600	-0.17635	-1.3292
1.7000	-0.17635	0.27145
1.7400	-0.17635	0.90327
1.7800	-0.17580	0.56630
1.8200	-0.17422	0.90327
1.8600	-0.17370	1.2402
1.9000	-0.17422	-0.065522
1.9400	-0.17370	-0.065522
1.9800	-0.17053	1.2402
2.0200	-0.17318	1.2402
2.0600	-0.17370	0.56630
2.1000	-0.17264	0.56630
2.1400	-0.17053	3.1357
2.1800	-0.17105	-1.3292
2.2200	-0.16999	3.1357
2.2600	-0.17105	-0.69734
2.3000	-0.16999	1.5351
2.3400	-0.16947	0.27145
2.3800	-0.16895	-1.3292
2.4200	-0.16895	1.8721
2.4600	-0.16840	2.8408
2.5000	-0.16788	-0.69734
2.5400	-0.16682	3.8096
2.5900	-0.16469	1.5351
2.6200	-0.16630	1.2402
2.6600	-0.16469	-2.2979
2.7000	-0.16417	0.27145
2.7400	-0.16469	1.8721
2.7800	-0.16417	-0.065522
2.8200	-0.16206	2.2090
2.8600	-0.16206	0.90327
2.9000	-0.16045	-0.40249
2.9400	-0.15941	-0.065522
2.9800	-0.15941	-1.0343
3.0200	-0.15993	-0.69734
3.0600	-0.16045	0.27145
3.1000	-0.15783	-0.40249
3.1400	-0.15728	0.90327
3.1900	-0.15783	-2.2979
3.2200	-0.15518	2.2090
3.2600	-0.15570	-1.0343
3.3000	-0.15412	-0.69734
3.3400	-0.15412	0.56630
3.3800	-0.15305	2.8408
3.4200	-0.15253	-0.065522
3.4600	-0.15198	1.5351
3.5000	-0.15095	1.2402
3.5400	-0.15095	1.8721
3.5800	-0.14988	0.90327
3.6200	-0.14988	3.1357
3.6600	-0.14775	1.5351
3.7000	-0.14882	-0.40249
3.7400	-0.14775	-1.3292
3.7800	-0.14617	-1.3292
3.8200	-0.14617	3.1357
3.8600	-0.14510	1.2402
3.9000	-0.14510	0.56630
3.9400	-0.14406	0.56630
3.9800	-0.14458	2.8408
4.0200	-0.14352	-0.40249
4.0600	-0.14300	1.2402
4.1000	-0.14300	0.27145
4.1400	-0.14193	0.90327
4.1800	-0.14141	-1.0343
4.2200	-0.14248	0.56630
4.2600	-0.14087	3.4727
4.3000	-0.13876	-0.69734
4.3400	-0.13928	0.27145
4.3800	-0.14035	0.56630
4.4200	-0.13928	1.8721
4.4600	-0.13824	1.5351
4.5000	-0.13928	-0.69734
4.5400	-0.13718	2.2090
4.5800	-0.13770	0.90327
4.6200	-0.13560	-1.6661
4.6600	-0.13560	0.90327
4.7000	-0.13560	-0.69734
4.7400	-0.13453	0.27145
4.7800	-0.13505	-1.0343
4.8200	-0.13453	-1.0343
4.8600	-0.13295	2.5039
4.9000	-0.13295	-0.065522
4.9400	-0.13346	-0.065522
4.9800	-0.13188	1.5351
5.0200	-0.13240	-0.69734
5.0600	-0.13295	2.2090
5.1000	-0.13136	-3.6037
5.1400	-0.13081	3.4727
5.1800	-0.12975	-0.69734
5.2200	-0.12975	-0.40249
5.2600	-0.12975	-0.40249
5.3000	-0.12871	-2.9719
5.3400	-0.12871	0.90327
5.3800	-0.12817	-1.6661
5.4200	-0.12713	-0.40249
5.4600	-0.12765	2.2090
5.5000	-0.12765	-2.0031
5.5400	-0.12552	0.27145
5.5800	-0.12552	-2.2979
5.6200	-0.12448	-1.0343
5.6600	-0.12448	-0.065522
5.7000	-0.12341	-2.2979
5.7400	-0.12289	0.56630
5.7800	-0.12235	0.27145
5.8200	-0.12183	-1.6661
5.8600	-0.12183	1.8721
5.9000	-0.12024	0.27145
5.9400	-0.12076	-1.0343
5.9800	-0.11811	0.90327
6.0200	-0.11759	-0.40249
6.0600	-0.11759	0.90327
6.1000	-0.11601	-0.065522
6.1400	-0.11601	-1.3292
6.1800	-0.11494	0.27145
6.2200	-0.11440	-1.0343
6.2600	-0.11336	0.90327
6.3000	-0.11388	0.27145
6.3400	-0.11178	-0.40249
6.3800	-0.10965	3.1357
6.4200	-0.11178	-0.69734
6.4600	-0.10965	0.90327
6.5000	-0.11071	0.56630
6.5400	-0.10858	-0.40249
6.5800	-0.10965	2.2090
6.6200	-0.10806	-0.40249
6.6600	-0.10700	2.5039
6.7000	-0.10754	1.2402
6.7400	-0.10593	-0.40249
6.7800	-0.10489	-1.6661
6.8200	-0.10489	-0.40249
6.8600	-0.10541	3.8096
6.9000	-0.10435	2.5039
6.9400	-0.10331	-0.69734
6.9800	-0.10276	3.4727
7.0200	-0.10224	-1.3292
7.0600	-0.10331	2.5039
7.1000	-0.10224	-1.6661
7.1400	-0.10118	0.56630
7.1800	-0.10170	-1.0343
7.2200	-0.099074	0.27145
7.2600	-0.099593	-0.065522
7.3000	-0.099074	3.4727
7.3400	-0.098528	-1.6661
7.3800	-0.099074	-0.065522
7.4200	-0.098528	-0.40249
7.4600	-0.098528	2.2090
7.5000	-0.097462	1.2402
7.5400	-0.097462	0.27145
7.5800	-0.096424	3.1357
7.6200	-0.094813	-0.40249
7.6600	-0.096424	0.27145
7.7000	-0.096424	1.5351
7.7400	-0.094813	0.90327
7.7800	-0.093775	1.8721
7.8200	-0.094294	-0.065522
7.8600	-0.094294	-0.40249
7.9000	-0.093228	1.2402
7.9400	-0.091644	-1.3292
7.9800	-0.093228	2.5039
8.0200	-0.091644	0.90327
8.0600	-0.090579	0.27145
8.1000	-0.090060	-0.69734
8.1400	-0.090060	-2.9719
8.1800	-0.089541	-1.3292
8.2200	-0.088995	1.2402
8.2600	-0.088995	2.8408
8.3000	-0.088476	1.2402
8.3400	-0.086345	0.90327
8.3800	-0.087957	-0.065522
8.4200	-0.086891	-0.40249
8.4600	-0.086345	-1.0343
8.5000	-0.085307	1.2402
8.5400	-0.084761	-0.69734
8.5800	-0.083723	5.0733
8.6200	-0.082111	-1.0343
8.6600	-0.083176	5.4102
8.7000	-0.082111	0.27145
8.7400	-0.082111	0.27145
8.7800	-0.081592	-0.40249
8.8200	-0.080527	1.2402
8.8600	-0.078942	2.2090
8.9000	-0.077877	1.2402
8.9400	-0.077358	2.2090
8.9800	-0.076839	1.8721
9.0200	-0.077358	0.56630
9.0600	-0.077358	-0.40249
9.1000	-0.075774	2.2090
9.1400	-0.074708	-0.69734
9.1800	-0.073643	3.1357
9.2200	-0.072605	-0.69734
9.2600	-0.071540	-1.0343
9.3000	-0.071540	2.2090
9.3400	-0.070474	0.90327
9.3800	-0.071540	1.2402
9.4200	-0.069955	2.5039
9.4600	-0.069409	-1.6661
9.5000	-0.067825	0.90327
9.5400	-0.068371	-3.2667
9.5800	-0.067306	2.8408
9.6200	-0.067306	4.1045
9.6600	-0.066760	-0.69734
9.7000	-0.066241	0.27145
9.7400	-0.065175	1.5351
9.7800	-0.065722	-0.40249
9.8200	-0.065175	0.56630
9.8600	-0.064656	-2.9719
9.9000	-0.064137	-0.065522
9.9400	-0.063072	2.8408
9.9800	-0.062526	-0.40249
10.020	-0.062526	3.4727
10.060	-0.062007	0.90327
10.100	-0.061488	0.27145
10.140	-0.062007	-1.3292
10.180	-0.060422	1.8721
10.220	-0.059876	-0.065522
10.260	-0.058838	0.56630
10.300	-0.058292	0.56630
10.340	-0.058838	-0.065522
10.380	-0.058292	-0.40249
10.420	-0.057773	2.5039
10.460	-0.058292	-0.065522
10.500	-0.056188	0.90327
10.540	-0.055642	0.27145
10.580	-0.056188	0.27145
10.620	-0.054058	1.5351
10.660	-0.055642	-2.2979
10.700	-0.054604	1.5351
10.740	-0.054058	2.5039
10.780	-0.054604	0.56630
10.820	-0.053539	2.5039
10.860	-0.054058	0.90327
10.900	-0.051408	1.8721
10.940	-0.051954	2.2090
10.980	-0.050889	0.27145
11.020	-0.051408	5.0733
11.060	-0.049824	-0.40249
11.100	-0.050370	4.1045
11.140	-0.049824	-1.0343
11.180	-0.049305	1.8721
11.220	-0.048240	0.27145
11.260	-0.047721	0.90327
11.300	-0.046655	2.2090
11.340	-0.046136	2.8408
11.380	-0.046136	-1.0343
11.420	-0.044552	3.8096
11.460	-0.045590	1.2402
11.500	-0.044552	-0.69734
11.540	-0.042421	2.5039
11.580	-0.042940	0.27145
11.620	-0.041356	2.8408
11.660	-0.040291	2.8408
11.700	-0.039772	2.8408
11.740	-0.039772	3.1357
11.780	-0.039253	0.56630
11.820	-0.039772	-0.40249
11.860	-0.037122	2.2090
11.900	-0.037668	1.8721
11.940	-0.036603	2.8408
11.980	-0.036057	-0.69734
12.020	-0.033953	2.2090
12.060	-0.033953	1.2402
12.100	-0.031823	2.2090
12.140	-0.032369	3.4727
12.180	-0.031823	-0.69734
12.220	-0.030785	1.8721
12.260	-0.031304	-1.3292
12.300	-0.030238	0.27145
12.340	-0.029719	1.2402
12.380	-0.028654	-1.3292
12.420	-0.028654	3.4727
12.460	-0.029200	-0.40249
12.500	-0.027589	-0.40249
12.540	-0.026551	1.8721
12.580	-0.026551	-1.6661
12.620	-0.026551	0.90327
12.660	-0.026005	0.27145
12.700	-0.024967	0.56630
12.740	-0.024420	0.56630
12.780	-0.023355	0.56630
12.820	-0.023901	0.27145
12.860	-0.023355	0.56630
12.900	-0.022317	0.27145
12.940	-0.022317	0.90327
12.980	-0.021252	-1.3292
13.020	-0.022317	3.4727
13.060	-0.021771	-0.69734
13.100	-0.019121	-1.6661
13.140	-0.019121	0.56630
13.180	-0.019121	0.90327
13.220	-0.019667	-1.0343
13.260	-0.019121	2.8408
13.300	-0.018602	0.27145
13.340	-0.018602	1.8721
13.380	-0.018083	-0.065522
13.420	-0.017537	1.5351
13.460	-0.016471	2.5039
13.500	-0.016471	-0.40249
13.540	-0.015952	2.2090
13.580	-0.015952	0.90327
13.620	-0.015433	3.8096
13.660	-0.014368	1.2402
13.700	-0.013849	0.27145
13.740	-0.012784	2.2090
13.780	-0.012784	1.5351
13.820	-0.012237	0.27145
13.860	-0.012784	5.4102
13.900	-0.010653	0.90327
13.940	-0.011199	0.27145
13.980	-0.0096151	0.27145
14.020	-0.0064192	1.2402
14.060	-0.0090688	2.8408
14.100	-0.0080035	2.8408
14.140	-0.0074845	0.90327
14.180	-0.0069655	3.8096
14.220	-0.0059002	1.5351
14.260	-0.0064192	0.27145
14.300	-0.0043159	-0.065522
14.340	-0.0053539	4.4414
14.380	-0.0048349	2.2090
14.420	-0.0048349	3.4727
14.460	-0.0032506	3.8096
14.500	-0.0011199	2.8408
14.540	-0.00060094	1.8721
14.580	-0.00060094	-0.69734
14.620	-0.00060094	1.5351
14.660	0.00046437	6.3790
14.700	-8.1947e-05	1.2402
14.740	0.0015024	4.1045
14.780	0.0020487	1.2402
14.820	0.0025677	0.27145
14.860	0.0041520	1.8721
14.900	0.0052173	0.56630
14.940	0.0052173	1.5351
14.980	0.0041520	5.4102
15.020	0.0052173	1.2402
15.060	0.0068016	3.1357
15.100	0.0083859	2.2090
15.140	0.0083859	1.5351
15.180	0.0094512	1.5351
15.230	0.0068016	1.8721
15.260	0.010517	2.8408
15.300	0.011036	-0.69734
15.340	0.011036	1.8721
15.380	0.011036	1.8721
15.420	0.012620	2.8408
15.460	0.012101	3.8096
15.500	0.012620	0.27145
15.540	0.013166	3.4727
15.580	0.013685	3.1357
15.620	0.014231	-0.065522
15.660	0.015816	3.4727
15.700	0.015816	0.56630
15.740	0.016335	5.4102
15.780	0.015269	3.8096
15.830	0.017919	1.2402
15.860	0.017400	4.4414
15.900	0.018465	4.1045
15.940	0.017919	-0.69734
15.980	0.018984	2.5039
16.020	0.019503	2.5039
16.060	0.019503	5.0733
16.100	0.021088	0.56630
16.140	0.020569	5.4102
16.180	0.021088	4.4414
16.220	0.022699	3.8096
16.260	0.022153	-0.69734
16.300	0.021634	1.5351
16.340	0.022699	5.7051
16.380	0.023218	3.4727
16.420	0.023218	3.4727
16.460	0.023737	5.7051
16.500	0.024803	2.5039
16.540	0.025868	3.4727
16.580	0.025322	2.2090
16.620	0.026933	1.8721
16.660	0.025868	4.7784
16.700	0.026933	2.8408
16.740	0.027452	2.8408
16.780	0.028518	5.4102
16.820	0.028518	4.7784
16.860	0.028518	3.8096
16.900	0.029556	0.56630
16.940	0.030102	2.8408
16.980	0.030102	4.1045
17.020	0.031167	1.5351
17.060	0.031167	5.7051
17.100	0.032205	1.5351
17.140	0.032205	2.2090
17.180	0.033271	4.7784
17.220	0.034336	2.5039
17.260	0.034855	4.4414
17.300	0.035920	3.1357
17.340	0.036985	3.8096
17.380	0.036985	2.5039
17.420	0.037504	3.8096
17.460	0.036985	3.8096
17.500	0.039635	2.5039
17.540	0.040154	3.1357
17.580	0.039635	3.8096
17.620	0.041738	4.4414
17.660	0.041219	3.8096
17.700	0.041219	5.7051
17.740	0.043869	2.2090
17.780	0.042804	7.0108
17.820	0.045453	3.1357
17.860	0.043869	6.6739
17.900	0.045453	7.3478
17.940	0.045972	3.1357
17.980	0.047038	6.3790
18.020	0.047038	4.1045
18.060	0.048622	5.4102
18.100	0.049168	7.0108
18.140	0.049168	4.7784
18.180	0.050206	10.549
18.220	0.050753	4.7784
18.260	0.050753	5.7051
18.300	0.052337	7.0108
18.340	0.052337	6.6739
18.380	0.051791	7.6427
18.420	0.053921	8.6114
18.460	0.053402	5.7051
18.500	0.054986	8.6114
18.540	0.054986	5.7051
18.580	0.054440	10.886
18.620	0.056024	7.0108
18.660	0.055505	7.9796
18.700	0.056571	7.9796
18.740	0.057636	7.9796
18.780	0.056571	11.181
18.820	0.058155	10.212
18.860	0.058155	8.6114
18.900	0.058674	10.549
18.940	0.059739	7.3478
18.980	0.059220	11.181
19.020	0.059220	8.9484
19.060	0.060805	8.2745
19.100	0.061324	11.813
19.140	0.061324	8.6114
19.180	0.062389	10.549
19.220	0.061324	10.549
19.260	0.063454	9.9172
19.300	0.062908	8.6114
19.340	0.062908	9.9172
19.380	0.063973	12.150
19.420	0.064492	11.181
19.460	0.065039	9.9172
19.500	0.065558	13.118
19.540	0.065039	12.150
19.580	0.065558	13.118
19.620	0.067142	9.5802
19.660	0.067688	8.2745
19.700	0.068207	12.487
19.740	0.068207	10.886
19.780	0.068754	10.549
19.820	0.069792	13.118
19.860	0.069792	10.549
19.900	0.070338	14.087
19.940	0.071922	13.455
19.980	0.071922	10.549
20.020	0.072988	14.087
20.060	0.071922	11.181
20.100	0.074572	13.750
20.140	0.073507	14.087
20.180	0.074026	17.625
20.220	0.077221	15.688
20.260	0.076675	15.688
20.300	0.077221	16.657
20.340	0.077221	15.056
20.380	0.077740	15.056
20.420	0.078259	16.320
20.460	0.080390	16.320
20.500	0.080909	19.563
20.540	0.081974	16.025
20.580	0.081455	18.257
20.620	0.082493	17.625
20.660	0.081974	16.951
20.700	0.083040	19.563
20.740	0.084624	18.889
20.780	0.085689	19.226
20.820	0.086208	20.195
20.860	0.086727	19.226
20.900	0.087274	20.827
20.940	0.087793	20.827
20.980	0.087793	21.164
21.020	0.087793	23.059
21.060	0.089377	19.226
21.100	0.089923	23.733
21.140	0.089923	24.702
21.180	0.089923	22.764
21.220	0.091508	23.396
21.260	0.093611	27.271
21.300	0.092573	25.965
21.340	0.093611	25.334
21.380	0.094157	25.334
21.420	0.094157	27.566
21.460	0.093611	23.733
21.500	0.095741	28.535
21.540	0.095741	28.872
21.580	0.096260	27.903
21.620	0.096807	29.504
21.660	0.095741	30.135
21.700	0.096807	26.597
21.740	0.097845	27.903
21.780	0.096807	28.535
21.820	0.098391	31.441
21.860	0.099975	33.042
21.900	0.10049	31.441
21.940	0.099975	34.979
21.980	0.10049	29.504
22.020	0.10104	34.642
22.060	0.10156	31.736
22.100	0.10104	35.274
22.140	0.10263	35.611
22.180	0.10314	39.486
22.220	0.10369	35.948
22.260	0.10421	34.642
22.300	0.10473	40.118
22.340	0.10421	39.149
22.380	0.10579	40.118
22.420	0.10527	39.781
22.460	0.10631	40.118
22.500	0.10631	38.812
22.540	0.10686	42.056
22.580	0.10738	43.951
22.620	0.10792	45.257
22.660	0.10896	43.656
22.700	0.11003	48.163
22.740	0.10951	47.489
22.780	0.10896	46.521
22.820	0.11055	43.951
22.860	0.11216	48.163
22.900	0.11161	53.302
22.940	0.11216	49.090
22.980	0.11268	51.028
23.020	0.11478	56.166
23.060	0.11374	54.903
23.100	0.11585	53.302
23.140	0.11691	52.628
23.180	0.11639	56.840
23.220	0.11691	60.041
23.260	0.11798	59.410
23.300	0.11956	59.704
23.340	0.11850	63.243
23.380	0.11956	61.305
23.420	0.11901	60.673
23.460	0.12115	64.548
23.500	0.12166	63.580
23.540	0.12328	67.750
23.580	0.12328	66.444
23.620	0.12486	67.413
23.660	0.12486	70.951
23.700	0.12538	69.687
23.740	0.12538	70.319
23.780	0.12644	73.520
23.820	0.12644	74.194
23.860	0.12751	76.090
23.900	0.12855	77.395
23.940	0.12961	78.659
23.980	0.12909	78.659
24.020	0.13013	78.996
24.060	0.13068	81.902
24.100	0.13174	81.902
24.140	0.13120	83.798
24.180	0.13120	83.166
24.220	0.13333	86.367
24.260	0.13278	87.673
24.300	0.13437	85.735
24.340	0.13333	91.211
24.380	0.13385	89.611
24.420	0.13437	90.242
24.460	0.13598	94.749
24.500	0.13650	96.350
24.540	0.13702	96.687
24.580	0.13650	99.551
24.620	0.13808	100.86
24.660	0.13650	103.09
24.700	0.13808	102.79
24.740	0.13863	106.63
24.780	0.13967	106.63
24.820	0.13967	107.93
24.860	0.13863	108.57
24.900	0.14073	110.80
24.940	0.13967	115.30
24.980	0.13915	118.21
25.020	0.14180	116.91
25.060	0.14231	121.08
25.100	0.14286	120.44
25.140	0.14231	125.29
25.180	0.14286	126.55
25.220	0.14338	124.32
25.260	0.14445	129.12
25.300	0.14603	132.32
25.340	0.14548	132.66
25.380	0.14548	136.20
25.420	0.14603	136.53
25.460	0.14761	141.67
25.500	0.14709	141.67
25.540	0.14709	142.64
25.580	0.14813	145.51
25.620	0.14813	148.41
25.660	0.14920	150.35
25.700	0.15078	152.24
25.740	0.15026	154.52
25.780	0.15237	155.49
25.820	0.15133	159.03
25.860	0.15237	160.63
25.900	0.15395	162.56
25.940	0.15450	166.10
25.980	0.15395	169.60
26.020	0.15450	171.87
26.060	0.15821	170.57
26.100	0.15556	177.64
26.140	0.15767	176.04
26.180	0.15767	179.58
26.220	0.15980	179.92
26.260	0.15925	186.03
26.300	0.15925	188.60
26.340	0.16032	192.43
26.380	0.16083	194.70
26.420	0.16245	194.70
26.460	0.16348	197.57
26.500	0.16297	199.50
26.540	0.16403	202.71
26.580	0.16507	206.58
26.620	0.16507	208.18
26.660	0.16348	212.06
26.700	0.16613	214.63
26.740	0.16668	214.92
26.780	0.16826	219.43
26.820	0.16930	222.00
26.860	0.16772	225.54
26.900	0.16930	229.37
26.940	0.17037	231.64
26.980	0.16985	235.18
27.020	0.17091	237.12
27.060	0.17143	242.55
27.100	0.17195	243.23
27.140	0.17195	244.15
27.180	0.17302	249.00
27.220	0.17354	250.26
27.260	0.17408	257.67
27.300	0.17515	259.91
27.340	0.17408	262.18
27.380	0.17515	267.32
27.420	0.17515	269.55
27.460	0.17567	273.43
27.500	0.17567	273.43
27.540	0.17780	276.97
27.580	0.17725	280.17
27.620	0.17780	286.61
27.660	0.17780	288.21
27.700	0.17884	291.75
27.740	0.17832	295.92
27.780	0.17938	300.43
27.820	0.18149	301.69
27.870	0.18203	305.86
27.900	0.18097	309.40
27.940	0.18149	315.21
27.980	0.18149	317.44
28.020	0.18203	319.04
28.060	0.18307	323.21
28.100	0.18255	329.03
28.140	0.18362	329.66
28.180	0.18465	334.46
28.220	0.18465	337.70
28.260	0.18465	341.54
28.300	0.18572	346.04
28.340	0.18627	349.58
28.380	0.18572	355.35
28.420	0.18678	358.89
28.460	0.18730	361.46
28.500	0.18785	366.30
28.540	0.18889	368.20
28.580	0.18837	373.04
28.620	0.18943	375.95
28.660	0.19050	382.69
28.700	0.19102	384.29
28.740	0.19154	388.46
28.780	0.19208	396.51
28.820	0.19315	397.14
28.860	0.19315	400.04
28.900	0.19473	404.21
28.940	0.19367	408.72
28.980	0.19632	415.12
29.020	0.19684	418.66
29.060	0.19632	426.07
29.100	0.19738	428.94
29.140	0.19790	429.61
29.180	0.19842	433.78
29.220	0.20001	438.92
29.260	0.20001	445.32
29.300	0.20055	449.83
29.340	0.20214	452.74
29.380	0.20107	458.21
29.420	0.20372	463.02
29.460	0.20424	465.25
29.500	0.20530	470.09
29.540	0.20585	475.23
29.580	0.20585	479.11
29.620	0.20585	484.88
29.660	0.20689	490.35
29.700	0.20795	495.79
29.740	0.20902	499.32
29.780	0.20744	504.46
29.820	0.21008	510.28
29.860	0.20954	514.11
29.900	0.20954	519.58
29.940	0.21008	522.79
29.980	0.21060	527.29
30.020	0.21112	533.06
30.060	0.21219	538.54
30.100	0.21325	543.34
30.140	0.21273	548.48
30.180	0.21273	553.95
30.220	0.21377	557.16
30.260	0.21536	561.66
30.300	0.21536	566.51
30.340	0.21484	570.05
30.380	0.21590	574.85
30.420	0.21590	580.95
30.460	0.21642	582.89
30.500	0.21697	589.29
30.540	0.21697	595.40
30.580	0.21855	601.51
30.620	0.21749	600.54
30.660	0.21907	611.16
30.700	0.22014	616.63
30.740	0.22120	619.54
30.780	0.21907	623.08
30.820	0.22120	628.21
30.860	0.22172	633.02
30.900	0.22172	639.76
30.940	0.22279	644.60
30.980	0.22120	648.77
31.020	0.22382	647.46
31.060	0.22279	642.33
31.100	0.22331	635.25
31.140	0.22224	630.11
31.180	0.22120	626.57
31.220	0.22172	623.71
31.260	0.22172	624.00
31.300	0.22172	620.80
31.340	0.22279	616.29
31.380	0.22224	614.40
31.420	0.22279	613.09
31.460	0.22172	608.92
31.500	0.22331	607.62
31.540	0.22331	606.99
31.580	0.22279	603.78
31.620	0.22224	601.51
31.660	0.22279	599.28
31.700	0.22279	597.68
31.740	0.22224	597.04
31.780	0.22279	595.11
31.820	0.22279	595.40
31.860	0.22382	592.83
31.900	0.22279	590.60
31.940	0.22172	589.63
31.980	0.22331	588.03
32.020	0.22382	588.66
32.060	0.22279	588.03
32.100	0.22382	587.06
32.140	0.22489	584.16
32.180	0.22489	583.86
32.220	0.22437	579.69
32.260	0.22382	579.99
32.300	0.22382	577.75
32.340	0.22437	577.12
32.380	0.22437	575.82
32.420	0.22596	577.12
32.460	0.22544	575.18
32.500	0.22544	574.51
32.540	0.22437	571.65
32.580	0.22544	571.01
32.620	0.22596	568.74
32.660	0.22437	568.11
32.700	0.22437	568.44
32.740	0.22544	567.48
32.780	0.22544	565.54
32.820	0.22544	565.83
32.860	0.22489	564.91
32.900	0.22489	563.94
32.940	0.22544	563.26
32.980	0.22437	559.77
33.020	0.22382	559.77
33.060	0.22489	558.80
33.100	0.22382	557.83
33.140	0.22437	560.06
33.180	0.22489	559.09
33.220	0.22544	557.49
33.260	0.22382	557.16
33.300	0.22279	553.66
33.340	0.22382	554.29
33.380	0.22382	552.02
33.420	0.22224	552.35
33.460	0.22382	552.99
33.500	0.22382	552.02
33.540	0.22437	551.39
33.580	0.22331	549.78
33.620	0.22331	548.18
33.660	0.22331	547.22
33.700	0.22279	547.85
33.740	0.22331	549.45
33.780	0.22279	546.88
33.820	0.22331	543.68
33.860	0.22224	544.65
33.900	0.22279	544.65
33.940	0.22224	543.34
33.980	0.22120	542.08
34.020	0.22224	541.74
34.060	0.22172	540.77
34.100	0.22279	540.77
34.140	0.22279	540.77
34.180	0.22224	539.17
34.220	0.22224	538.54
34.260	0.22224	538.54
34.300	0.22224	537.91
34.340	0.22279	537.57
34.380	0.22224	537.23
34.420	0.22172	534.37
34.460	0.22172	535.34
34.500	0.22224	537.57
34.540	0.22279	534.66
34.580	0.22224	535.00
34.620	0.22382	535.34
34.660	0.22224	533.74
34.700	0.22224	530.83
34.740	0.22172	530.49
34.780	0.22437	532.43
34.820	0.22382	532.09
34.860	0.22224	531.46
34.900	0.22437	531.80
34.940	0.22279	530.83
34.980	0.22489	528.89
35.020	0.22382	527.63
35.060	0.22489	528.89
35.100	0.22437	528.89
35.140	0.22544	527.63
35.180	0.22382	527.92
35.220	0.22437	527.63
35.260	0.22596	527.29
35.300	0.22382	524.09
35.340	0.22279	524.09
35.380	0.22544	525.99
35.420	0.22544	524.09
35.460	0.22489	524.09
35.500	0.22489	522.49
35.540	0.22489	521.82
35.580	0.22544	520.55
35.620	0.22489	520.22
35.660	0.22437	520.85
35.700	0.22437	519.88
35.740	0.22544	519.58
35.780	0.22489	517.65
35.820	0.22437	517.65
35.860	0.22437	516.38
35.900	0.22489	515.71
35.940	0.22331	515.41
35.980	0.22489	515.08
36.020	0.22437	515.08
36.060	0.22437	514.45
36.100	0.22437	514.74
36.140	0.22382	512.84
36.180	0.22279	512.84
36.220	0.22489	512.84
36.260	0.22279	515.08
36.300	0.22331	511.88
36.340	0.22331	513.48
36.380	0.22489	511.54
36.420	0.22382	511.54
36.460	0.22224	511.20
36.500	0.22224	511.54
36.540	0.22279	510.57
36.580	0.22382	510.28
36.620	0.22279	509.31
36.660	0.22279	508.34
36.700	0.22279	508.34
36.740	0.22279	508.97
36.780	0.22279	508.63
36.820	0.22382	510.28
36.860	0.22120	506.74
36.900	0.22172	507.71
36.940	0.22172	506.74
36.980	0.22224	507.71
37.020	0.22224	507.03
37.060	0.22279	508.34
37.100	0.22279	508.63
37.140	0.22279	506.40
37.180	0.22224	503.83
37.220	0.22224	506.40
37.260	0.22331	505.43
37.300	0.22172	504.80
37.340	0.22224	503.83
37.380	0.22331	504.17
37.420	0.22224	504.17
37.460	0.22279	501.89
37.500	0.22382	502.86
37.540	0.22224	503.49
37.580	0.22331	503.49
37.620	0.22279	502.52
37.660	0.22279	501.26
37.700	0.22382	501.60
37.740	0.22279	501.26
37.780	0.22489	499.66
37.820	0.22437	498.69
37.860	0.22382	500.92
37.900	0.22279	498.69
37.940	0.22331	500.29
37.980	0.22489	500.92
38.020	0.22437	500.63
38.060	0.22437	496.46
38.100	0.22437	498.06
38.140	0.22544	496.75
38.180	0.22437	498.06
38.220	0.22489	498.69
38.260	0.22437	496.12
38.300	0.22489	494.82
38.340	0.22544	496.46
38.380	0.22489	496.46
38.420	0.22382	496.46
38.460	0.22544	496.12
38.500	0.22544	493.85
38.540	0.22489	492.58
38.580	0.22544	492.25
38.620	0.22489	491.95
38.660	0.22544	493.85
38.700	0.22172	493.85
38.740	0.22331	494.18
38.780	0.22544	491.28
38.820	0.22544	490.35
38.860	0.22596	489.68
38.900	0.22331	493.55
38.940	0.22382	488.41
38.980	0.22382	494.18
39.020	0.22331	492.92
39.060	0.22224	490.98
39.100	0.22382	489.05
39.140	0.22489	489.05
39.180	0.22382	487.78
39.220	0.22382	489.05
39.260	0.22279	489.68
39.300	0.22489	487.11
39.340	0.22224	489.05
39.380	0.22331	486.81
39.420	0.22437	486.48
39.460	0.22382	486.14
39.500	0.22279	486.81
39.540	0.22224	487.45
39.580	0.22279	487.78
39.620	0.22172	488.41
39.660	0.22279	487.78
39.700	0.22224	488.08
39.740	0.22172	483.91
39.780	0.22224	485.17
39.820	0.22224	484.24
39.860	0.22172	483.91
39.900	0.22382	482.31
39.940	0.22172	482.94
39.980	0.22224	481.97
40.020	0.22172	483.28
40.060	0.22224	486.48
40.100	0.22224	483.57
40.140	0.22224	482.60
40.180	0.22331	482.60
40.220	0.22224	481.97
40.260	0.22224	481.34
40.300	0.22279	481.00
40.340	0.22279	479.11
40.380	0.22120	484.24
40.420	0.22224	482.94
40.460	0.22279	479.40
40.510	0.22120	479.11
40.540	0.22279	480.71
40.580	0.22382	481.00
40.620	0.22489	480.03
40.660	0.22331	479.74
40.700	0.22224	479.11
40.740	0.22382	478.43
40.780	0.22279	478.14
40.820	0.22382	477.46
40.860	0.22331	478.43
40.900	0.22489	478.77
40.940	0.22382	478.43
40.980	0.22331	478.14
41.020	0.22382	477.80
41.060	0.22437	476.20
41.110	0.22382	478.14
41.140	0.22437	474.60
41.180	0.22489	474.60
41.220	0.22544	475.57
41.260	0.22544	476.54
41.300	0.22489	474.89
41.340	0.22437	477.17
41.380	0.22596	477.46
41.420	0.22544	476.54
41.460	0.22437	476.20
41.500	0.22544	474.89
41.540	0.22382	474.60
41.580	0.22544	474.89
41.620	0.22437	473.92
41.660	0.22489	473.92
41.700	0.22596	474.60
41.740	0.22489	472.66
41.780	0.22437	473.92
41.820	0.22489	474.89
41.860	0.22331	473.29
41.900	0.22437	472.32
41.940	0.22382	473.29
41.980	0.22331	473.92
42.020	0.22489	474.26
42.060	0.22382	474.60
42.100	0.22279	473.29
42.140	0.22382	471.36
42.180	0.22331	471.06
42.220	0.22172	472.32
42.260	0.22279	471.36
42.300	0.22224	470.43
42.340	0.22279	470.09
42.380	0.22331	469.12
42.420	0.22279	470.43
42.460	0.22224	468.79
42.500	0.22279	468.79
42.540	0.22224	470.43
42.580	0.22331	469.12
42.620	0.22172	468.49
42.660	0.22224	468.79
42.700	0.22172	469.46
42.740	0.22224	467.86
42.780	0.22224	467.86
42.820	0.22279	468.49
42.860	0.22172	466.22
42.900	0.22224	465.92
42.940	0.22224	465.92
42.980	0.22120	465.58
43.020	0.22172	466.55
43.060	0.22224	467.52
43.100	0.22382	467.19
43.140	0.22224	466.55
43.180	0.22279	464.62
43.220	0.22224	463.65
43.260	0.22279	462.38
43.300	0.22279	463.35
43.340	0.22224	463.98
43.380	0.22331	463.35
43.420	0.22331	464.62
43.460	0.22437	464.32
43.500	0.22331	463.65
43.540	0.22331	462.68
43.580	0.22331	464.62
43.620	0.22382	463.02
43.660	0.22544	462.68
43.700	0.22489	462.38
43.740	0.22544	466.22
43.780	0.22489	464.95
43.820	0.22489	462.68
43.860	0.22382	461.75
43.900	0.22382	462.05
43.940	0.22489	461.41
43.980	0.22437	463.65
44.020	0.22489	463.35
44.060	0.22489	462.68
44.100	0.22437	463.02
44.140	0.22544	461.75
44.180	0.22489	462.05
44.220	0.22489	462.68
44.260	0.22489	462.05
44.300	0.22279	461.41
44.340	0.22437	460.11
44.380	0.22437	459.81
44.420	0.22489	461.08
44.460	0.22489	461.75
44.500	0.22596	460.78
44.540	0.22544	461.08
44.580	0.22331	461.08
44.620	0.22382	458.85
44.660	0.22437	460.11
44.700	0.22331	460.78
44.740	0.22331	461.41
44.780	0.22382	459.18
44.820	0.22382	459.48
44.860	0.22382	458.51
44.900	0.22331	457.54
44.940	0.22382	457.54
44.980	0.22331	458.21
45.020	0.22331	456.57
45.060	0.22437	459.48
45.100	0.22331	457.54
45.140	0.22382	458.21
45.180	0.22172	458.85
45.220	0.22279	455.94
45.260	0.22279	456.57
45.300	0.22331	457.54
45.340	0.22224	457.24
45.380	0.22279	457.54
45.420	0.22331	456.91
45.460	0.22172	454.00
45.500	0.22172	454.34
45.540	0.22172	455.31
45.580	0.22279	455.31
45.620	0.22279	457.24
45.660	0.22224	455.64
45.700	0.22120	454.00
45.740	0.22224	453.37
45.780	0.22224	452.11
45.820	0.22224	455.64
45.860	0.22279	456.57
45.900	0.22172	454.68
45.940	0.22279	453.71
45.980	0.22224	455.94
46.020	0.22172	452.40
46.060	0.22172	453.07
46.100	0.22279	455.94
46.140	0.22279	455.94
46.180	0.22279	455.31
46.220	0.22331	452.74
46.260	0.22437	453.71
46.300	0.22279	453.07
46.340	0.22224	453.07
46.380	0.22437	453.37
46.420	0.22437	451.43
46.460	0.22382	454.00
46.500	0.22382	453.37
46.540	0.22382	453.71
46.580	0.22489	453.07
46.620	0.22437	451.43
46.660	0.22382	450.80
46.700	0.22437	450.80
46.740	0.22489	450.51
46.780	0.22437	451.14
46.820	0.22489	450.51
46.860	0.22489	450.51
46.900	0.22544	449.54
46.940	0.22382	450.80
46.980	0.22489	450.51
47.020	0.22489	451.14
47.060	0.22489	451.77
47.100	0.22596	449.83
47.140	0.22544	448.23
47.180	0.22596	447.60
47.220	0.22489	448.86
47.260	0.22544	449.54
47.300	0.22596	448.23
47.340	0.22489	448.86
47.380	0.22596	449.20
47.420	0.22489	447.60
47.460	0.22437	447.60
47.500	0.22382	446.97
47.540	0.22382	445.66
47.580	0.22437	449.20
47.620	0.22437	446.00
47.660	0.22382	448.23
47.700	0.22331	446.63
47.740	0.22437	447.26
47.780	0.22382	444.69
47.820	0.22331	445.66
47.860	0.22382	444.69
47.900	0.22331	444.06
47.940	0.22382	445.32
47.980	0.22437	443.43
48.020	0.22331	448.23
48.060	0.22331	446.97
48.100	0.22224	447.26
48.140	0.22331	445.66
48.180	0.22224	446.00
48.220	0.22279	445.32
48.260	0.22172	446.63
48.300	0.22279	446.63
48.340	0.22172	446.00
48.380	0.22331	446.00
48.420	0.22172	446.29
48.460	0.22279	446.00
48.500	0.22224	445.32
48.540	0.22172	445.03
48.580	0.22279	445.32
48.620	0.22120	445.66
48.660	0.22224	447.60
48.700	0.22172	446.00
48.740	0.22279	447.60
48.780	0.22279	443.72
48.820	0.22279	444.69
48.860	0.22279	443.09
48.900	0.22224	445.32
48.940	0.22279	444.40
48.980	0.22172	443.43
49.020	0.22224	444.06
49.060	0.22382	442.12
49.100	0.22382	442.46
49.140	0.22279	443.43
49.180	0.22331	442.75
49.220	0.22224	443.09
49.260	0.22331	442.12
49.300	0.22331	442.12
49.340	0.22331	442.75
49.380	0.22382	441.49
49.420	0.22489	439.89
49.460	0.22382	442.75
49.500	0.22489	441.83
49.540	0.22382	441.83
49.580	0.22489	441.49
49.620	0.22382	441.49
49.660	0.22489	441.49
49.700	0.22596	441.49
49.740	0.22489	441.15
49.780	0.22437	440.19
49.820	0.22331	441.15
49.860	0.22544	440.19
49.900	0.22489	440.86
49.940	0.22544	437.95
49.980	0.22544	443.09
50.020	0.22437	441.49
50.060	0.22489	442.12
50.100	0.22544	439.22
50.140	0.22382	439.89
50.180	0.22544	439.55
50.220	0.22437	438.92
50.260	0.22437	438.92
50.300	0.22437	439.89
50.340	0.22331	440.52
50.380	0.22489	440.19
50.420	0.22489	438.58
50.460	0.22544	436.35
50.500	0.22489	436.35
50.540	0.22437	436.98
50.580	0.22437	439.89
50.620	0.22331	439.89
50.660	0.22279	440.19
50.700	0.22437	437.32
50.740	0.22120	436.65
50.780	0.22382	437.95
50.820	0.22382	438.92
50.860	0.22331	438.29
50.900	0.22279	437.32
50.940	0.22224	438.29
50.980	0.22224	437.62
51.020	0.22224	435.38
51.060	0.22382	436.02
51.100	0.22279	437.32
51.140	0.22331	437.62
51.180	0.22224	436.65
51.220	0.22120	436.98
51.260	0.22279	436.02
51.300	0.22224	435.38
51.340	0.22437	435.72
51.380	0.22224	437.95
51.420	0.22172	436.98
51.460	0.22279	435.72
51.500	0.22279	436.02
51.540	0.22224	436.35
51.580	0.22172	435.38
51.620	0.22224	435.05
51.660	0.22224	436.35
51.700	0.22279	436.35
51.740	0.22437	436.02
51.780	0.22224	433.45
51.820	0.22224	433.78
51.860	0.22331	433.45
51.900	0.22331	431.51
51.940	0.22331	435.72
51.980	0.22331	435.05
52.020	0.22279	436.02
52.060	0.22437	434.41
52.100	0.22331	432.18
52.140	0.22331	431.21
52.180	0.22382	431.21
52.220	0.22437	431.51
52.260	0.22331	435.72
52.300	0.22382	435.38
52.340	0.22437	432.81
52.380	0.22437	432.48
52.420	0.22489	432.48
52.460	0.22489	433.45
52.500	0.22489	434.75
52.550	0.22120	435.05
52.580	0.22437	432.48
52.620	0.22382	431.85
52.660	0.22489	433.78
52.700	0.22596	433.15
52.740	0.22382	433.78
52.780	0.22544	432.48
52.820	0.22437	432.48
52.860	0.22544	431.85
52.900	0.22437	431.85
52.940	0.22489	433.45
52.980	0.22596	433.78
53.020	0.22437	434.75
53.060	0.22596	432.48
53.100	0.22596	432.48
53.150	0.22544	432.18
53.180	0.22489	433.15
53.220	0.22437	429.28
53.260	0.22489	431.85
53.300	0.22437	433.45
53.340	0.22489	430.58
53.380	0.22437	431.21
53.420	0.22331	431.21
53.460	0.22331	431.21
53.500	0.22437	431.51
53.540	0.22382	430.58
53.580	0.22437	429.91
53.620	0.22331	429.91
53.660	0.22382	430.24
53.700	0.22382	429.28
53.740	0.22382	428.94
53.780	0.22331	428.31
53.820	0.22014	374.01
53.860	0.21060	254.77
53.900	0.19790	175.41
53.940	0.18837	117.54
53.980	0.17725	78.996
54.020	0.16562	50.396
54.060	0.15502	31.441
54.100	0.14445	19.226
54.140	0.13278	9.2433
54.180	0.12221	8.2745
54.220	0.11109	2.8408
54.260	0.10049	4.1045
54.300	0.088339	0.27145
54.340	0.076675	-5.5413
54.380	0.067142	-10.680
54.420	0.056024	9.5802
54.460	0.044907	-7.1419
54.500	0.035401	3.4727
54.540	0.023737	-2.9719
54.580	0.012620	1.2402
54.620	0.0015024	-2.6349
54.660	-0.0080035	-0.065522
54.700	-0.019667	-1.0343
54.740	-0.030785	1.8721
54.780	-0.041356	0.90327
54.820	-0.051408	-1.0343
54.860	-0.064137	-1.0343
54.900	-0.075227	1.2402
54.940	-0.084761	-1.3292
54.980	-0.095878	1.2402
55.020	-0.10648	0.27145
55.060	-0.11653	1.8721
55.100	-0.12765	0.27145
55.140	-0.13928	-1.6661
55.180	-0.15040	1.5351
55.220	-0.15993	-1.0343
55.260	-0.17157	-0.40249
55.300	-0.18217	1.2402
55.340	-0.18534	-0.065522
55.380	-0.18427	0.90327
55.420	-0.18534	-0.69734
55.460	-0.18482	0.27145
55.500	-0.18534	-0.065522
55.540	-0.18588	1.2402
55.580	-0.18534	0.27145
55.620	-0.18534	1.5351
55.660	-0.18534	1.5351
55.700	-0.18482	0.27145
55.740	-0.18482	1.5351
55.780	-0.18534	1.5351
55.820	-0.18534	2.5039
55.860	-0.18482	-0.065522
55.900	-0.18482	0.90327
55.940	-0.18588	0.56630
55.980	-0.18534	-1.3292
56.020	-0.18482	2.2090
56.060	-0.18534	1.8721
56.100	-0.18427	1.8721
56.140	-0.18534	-2.0031
56.180	-0.18427	2.8408
56.220	-0.18640	-0.69734
56.260	-0.18534	-1.0343
56.300	-0.18640	-0.065522
56.340	-0.18640	0.27145
56.380	-0.18640	2.5039
56.420	-0.18588	0.27145
56.460	-0.18588	0.90327
56.500	-0.18482	-0.40249
56.540	-0.18692	-0.40249
56.580	-0.18692	-1.0343
56.620	-0.18747	-0.065522
56.660	-0.18747	0.27145
56.700	-0.18747	1.2402
56.740	-0.18692	-1.3292
56.780	-0.18747	2.8408
56.820	-0.18799	0.90327
56.860	-0.18853	-0.69734
56.900	-0.18799	0.90327
56.940	-0.18905	0.27145
56.980	-0.18799	0.56630
57.020	-0.18747	0.56630
